Summary
[Data Information]
Data is:,Measurement Data
Dataset Name:,RawData
Sample Name:,prova_abd_28825_10min
Sample ID
Option
Analyst
Date/Time:,28/08/2025 18:07:35
Comments
Parameter File Name:,4NP_bezzetto.vspm
Report File Name
[Software Information]
Software Name:,LabSolutions UV-Vis
Version:,1.13
[Instrument Information]
Instrument Name:,UV-2600i
Instrument Type:,UV-2600 Series
Model (S/N):,UV-2600i (A12595901003)

Parameter
[Measurement]
Start:,800 nm
End:,400 nm
Data Interval:,1.0
Scan Speed:,Medium speed
Spectrum Type:,Absorbance
[Accessories]
Accessories:,None
[Advanced]
Slit Width:,2.0
Detector Unit:,Direct Receiving of Light
Light Source Switch Wavelength:,323
S/R Switch:,Standard
Stair Correction:,ON
[Repeat]
Repeat Measurement:,OFF
[Post-processing]
Spectrum Transformation:,OFF
Data Processing Table:,OFF
Print:,OFF

Wavelength (nm),Absorbance
400.0,0.0152
401.0,0.0149
402.0,0.0143
403.0,0.0140
404.0,0.0135
405.0,0.0129
406.0,0.0128
407.0,0.0124
408.0,0.0122
409.0,0.0119
410.0,0.0116
411.0,0.0116
412.0,0.0114
413.0,0.0114
414.0,0.0113
415.0,0.0113
416.0,0.0115
417.0,0.0115
418.0,0.0116
419.0,0.0118
420.0,0.0120
421.0,0.0123
422.0,0.0124
423.0,0.0127
424.0,0.0129
425.0,0.0133
426.0,0.0135
427.0,0.0139
428.0,0.0141
429.0,0.0144
430.0,0.0148
431.0,0.0151
432.0,0.0154
433.0,0.0158
434.0,0.0162
435.0,0.0166
436.0,0.0170
437.0,0.0173
438.0,0.0177
439.0,0.0182
440.0,0.0186
441.0,0.0189
442.0,0.0193
443.0,0.0198
444.0,0.0202
445.0,0.0206
446.0,0.0211
447.0,0.0214
448.0,0.0220
449.0,0.0224
450.0,0.0230
451.0,0.0233
452.0,0.0238
453.0,0.0244
454.0,0.0247
455.0,0.0253
456.0,0.0258
457.0,0.0263
458.0,0.0268
459.0,0.0274
460.0,0.0279
461.0,0.0283
462.0,0.0287
463.0,0.0294
464.0,0.0300
465.0,0.0303
466.0,0.0309
467.0,0.0314
468.0,0.0319
469.0,0.0324
470.0,0.0330
471.0,0.0335
472.0,0.0340
473.0,0.0344
474.0,0.0350
475.0,0.0355
476.0,0.0360
477.0,0.0365
478.0,0.0371
479.0,0.0376
480.0,0.0382
481.0,0.0387
482.0,0.0392
483.0,0.0398
484.0,0.0402
485.0,0.0408
486.0,0.0412
487.0,0.0418
488.0,0.0423
489.0,0.0428
490.0,0.0433
491.0,0.0438
492.0,0.0442
493.0,0.0446
494.0,0.0451
495.0,0.0453
496.0,0.0458
497.0,0.0461
498.0,0.0465
499.0,0.0469
500.0,0.0472
501.0,0.0476
502.0,0.0478
503.0,0.0483
504.0,0.0486
505.0,0.0489
506.0,0.0492
507.0,0.0497
508.0,0.0500
509.0,0.0506
510.0,0.0510
511.0,0.0514
512.0,0.0519
513.0,0.0524
514.0,0.0529
515.0,0.0535
516.0,0.0543
517.0,0.0549
518.0,0.0556
519.0,0.0565
520.0,0.0572
521.0,0.0582
522.0,0.0592
523.0,0.0602
524.0,0.0612
525.0,0.0625
526.0,0.0636
527.0,0.0650
528.0,0.0663
529.0,0.0678
530.0,0.0694
531.0,0.0709
532.0,0.0726
533.0,0.0744
534.0,0.0763
535.0,0.0784
536.0,0.0804
537.0,0.0826
538.0,0.0848
539.0,0.0871
540.0,0.0894
541.0,0.0919
542.0,0.0945
543.0,0.0971
544.0,0.1000
545.0,0.1027
546.0,0.1055
547.0,0.1087
548.0,0.1118
549.0,0.1151
550.0,0.1185
551.0,0.1221
552.0,0.1255
553.0,0.1290
554.0,0.1327
555.0,0.1364
556.0,0.1403
557.0,0.1442
558.0,0.1480
559.0,0.1521
560.0,0.1561
561.0,0.1600
562.0,0.1641
563.0,0.1684
564.0,0.1727
565.0,0.1771
566.0,0.1816
567.0,0.1862
568.0,0.1909
569.0,0.1959
570.0,0.2013
571.0,0.2066
572.0,0.2126
573.0,0.2184
574.0,0.2245
575.0,0.2309
576.0,0.2376
577.0,0.2443
578.0,0.2514
579.0,0.2590
580.0,0.2666
581.0,0.2742
582.0,0.2823
583.0,0.2905
584.0,0.2984
585.0,0.3070
586.0,0.3156
587.0,0.3247
588.0,0.3339
589.0,0.3430
590.0,0.3521
591.0,0.3617
592.0,0.3714
593.0,0.3812
594.0,0.3907
595.0,0.4002
596.0,0.4101
597.0,0.4194
598.0,0.4284
599.0,0.4373
600.0,0.4459
601.0,0.4544
602.0,0.4623
603.0,0.4696
604.0,0.4767
605.0,0.4830
606.0,0.4889
607.0,0.4945
608.0,0.4995
609.0,0.5040
610.0,0.5080
611.0,0.5113
612.0,0.5142
613.0,0.5170
614.0,0.5191
615.0,0.5212
616.0,0.5231
617.0,0.5247
618.0,0.5264
619.0,0.5282
620.0,0.5299
621.0,0.5318
622.0,0.5339
623.0,0.5365
624.0,0.5394
625.0,0.5427
626.0,0.5466
627.0,0.5507
628.0,0.5552
629.0,0.5604
630.0,0.5661
631.0,0.5721
632.0,0.5786
633.0,0.5857
634.0,0.5930
635.0,0.6010
636.0,0.6094
637.0,0.6178
638.0,0.6271
639.0,0.6366
640.0,0.6461
641.0,0.6562
642.0,0.6662
643.0,0.6762
644.0,0.6864
645.0,0.6964
646.0,0.7060
647.0,0.7159
648.0,0.7248
649.0,0.7332
650.0,0.7409
651.0,0.7481
652.0,0.7542
653.0,0.7599
654.0,0.7646
655.0,0.7682
656.0,0.7711
657.0,0.7731
658.0,0.7742
659.0,0.7743
660.0,0.7733
661.0,0.7712
662.0,0.7675
663.0,0.7626
664.0,0.7558
665.0,0.7473
666.0,0.7368
667.0,0.7244
668.0,0.7096
669.0,0.6927
670.0,0.6733
671.0,0.6519
672.0,0.6290
673.0,0.6042
674.0,0.5770
675.0,0.5483
676.0,0.5193
677.0,0.4894
678.0,0.4593
679.0,0.4281
680.0,0.3981
681.0,0.3691
682.0,0.3405
683.0,0.3132
684.0,0.2877
685.0,0.2634
686.0,0.2413
687.0,0.2206
688.0,0.2012
689.0,0.1840
690.0,0.1680
691.0,0.1531
692.0,0.1398
693.0,0.1272
694.0,0.1164
695.0,0.1064
696.0,0.0970
697.0,0.0886
698.0,0.0813
699.0,0.0743
700.0,0.0680
701.0,0.0627
702.0,0.0574
703.0,0.0528
704.0,0.0485
705.0,0.0446
706.0,0.0410
707.0,0.0379
708.0,0.0350
709.0,0.0324
710.0,0.0301
711.0,0.0279
712.0,0.0260
713.0,0.0242
714.0,0.0225
715.0,0.0210
716.0,0.0196
717.0,0.0183
718.0,0.0172
719.0,0.0160
720.0,0.0150
721.0,0.0141
722.0,0.0133
723.0,0.0124
724.0,0.0117
725.0,0.0111
726.0,0.0102
727.0,0.0096
728.0,0.0091
729.0,0.0086
730.0,0.0080
731.0,0.0075
732.0,0.0072
733.0,0.0067
734.0,0.0063
735.0,0.0060
736.0,0.0056
737.0,0.0051
738.0,0.0050
739.0,0.0046
740.0,0.0043
741.0,0.0041
742.0,0.0041
743.0,0.0037
744.0,0.0036
745.0,0.0033
746.0,0.0031
747.0,0.0029
748.0,0.0027
749.0,0.0025
750.0,0.0025
751.0,0.0022
752.0,0.0021
753.0,0.0020
754.0,0.0019
755.0,0.0015
756.0,0.0017
757.0,0.0018
758.0,0.0017
759.0,0.0015
760.0,0.0013
761.0,0.0012
762.0,0.0010
763.0,0.0009
764.0,0.0008
765.0,0.0009
766.0,0.0008
767.0,0.0007
768.0,0.0007
769.0,0.0005
770.0,0.0006
771.0,0.0006
772.0,0.0004
773.0,0.0004
774.0,0.0003
775.0,0.0004
776.0,0.0002
777.0,0.0001
778.0,0.0002
779.0,0.0002
780.0,0.0001
781.0,0.0001
782.0,0.0001
783.0,0.0001
784.0,-0.0001
785.0,-0.0000
786.0,-0.0001
787.0,-0.0000
788.0,-0.0001
789.0,-0.0001
790.0,-0.0001
791.0,-0.0002
792.0,-0.0002
793.0,-0.0001
794.0,-0.0001
795.0,-0.0000
796.0,-0.0001
797.0,-0.0002
798.0,-0.0001
799.0,-0.0001
800.0,-0.0002
