Summary
[Data Information]
Data is:,Measurement Data
Dataset Name:,RawData
Sample Name:,prova2_7725_0min
Sample ID
Option
Analyst
Date/Time:,07/07/2025 16:01:56
Comments
Parameter File Name:,4NP_bezzetto.vspm
Report File Name
[Software Information]
Software Name:,LabSolutions UV-Vis
Version:,1.13
[Instrument Information]
Instrument Name:,UV-2600i
Instrument Type:,UV-2600 Series
Model (S/N):,UV-2600i (A12595901003)

Parameter
[Measurement]
Start:,800 nm
End:,300 nm
Data Interval:,1.0
Scan Speed:,Medium speed
Spectrum Type:,Absorbance
[Accessories]
Accessories:,None
[Advanced]
Slit Width:,2.0
Detector Unit:,Direct Receiving of Light
Light Source Switch Wavelength:,323
S/R Switch:,Standard
Stair Correction:,ON
[Repeat]
Repeat Measurement:,OFF
[Post-processing]
Spectrum Transformation:,OFF
Data Processing Table:,OFF
Print:,OFF

Wavelength (nm),Absorbance
300.0,0.5155
301.0,0.4748
302.0,0.4348
303.0,0.3971
304.0,0.3614
305.0,0.3292
306.0,0.3003
307.0,0.2742
308.0,0.2534
309.0,0.2349
310.0,0.2198
311.0,0.2078
312.0,0.1982
313.0,0.1905
314.0,0.1846
315.0,0.1794
316.0,0.1747
317.0,0.1709
318.0,0.1675
319.0,0.1641
320.0,0.1617
321.0,0.1590
322.0,0.1570
323.0,0.1552
324.0,0.1532
325.0,0.1513
326.0,0.1491
327.0,0.1464
328.0,0.1428
329.0,0.1382
330.0,0.1330
331.0,0.1266
332.0,0.1201
333.0,0.1129
334.0,0.1054
335.0,0.0976
336.0,0.0900
337.0,0.0828
338.0,0.0762
339.0,0.0700
340.0,0.0643
341.0,0.0597
342.0,0.0551
343.0,0.0513
344.0,0.0480
345.0,0.0448
346.0,0.0422
347.0,0.0399
348.0,0.0379
349.0,0.0358
350.0,0.0342
351.0,0.0323
352.0,0.0311
353.0,0.0297
354.0,0.0284
355.0,0.0271
356.0,0.0259
357.0,0.0247
358.0,0.0238
359.0,0.0229
360.0,0.0221
361.0,0.0213
362.0,0.0207
363.0,0.0200
364.0,0.0197
365.0,0.0193
366.0,0.0189
367.0,0.0186
368.0,0.0185
369.0,0.0184
370.0,0.0185
371.0,0.0185
372.0,0.0183
373.0,0.0181
374.0,0.0182
375.0,0.0183
376.0,0.0183
377.0,0.0184
378.0,0.0186
379.0,0.0187
380.0,0.0189
381.0,0.0189
382.0,0.0192
383.0,0.0194
384.0,0.0197
385.0,0.0201
386.0,0.0204
387.0,0.0208
388.0,0.0210
389.0,0.0212
390.0,0.0213
391.0,0.0216
392.0,0.0217
393.0,0.0217
394.0,0.0216
395.0,0.0214
396.0,0.0212
397.0,0.0206
398.0,0.0201
399.0,0.0194
400.0,0.0187
401.0,0.0180
402.0,0.0170
403.0,0.0163
404.0,0.0152
405.0,0.0145
406.0,0.0135
407.0,0.0127
408.0,0.0119
409.0,0.0112
410.0,0.0105
411.0,0.0098
412.0,0.0094
413.0,0.0090
414.0,0.0086
415.0,0.0084
416.0,0.0082
417.0,0.0081
418.0,0.0081
419.0,0.0080
420.0,0.0082
421.0,0.0082
422.0,0.0083
423.0,0.0084
424.0,0.0087
425.0,0.0088
426.0,0.0091
427.0,0.0093
428.0,0.0095
429.0,0.0099
430.0,0.0102
431.0,0.0105
432.0,0.0108
433.0,0.0113
434.0,0.0116
435.0,0.0120
436.0,0.0124
437.0,0.0128
438.0,0.0134
439.0,0.0138
440.0,0.0143
441.0,0.0146
442.0,0.0151
443.0,0.0157
444.0,0.0162
445.0,0.0168
446.0,0.0173
447.0,0.0179
448.0,0.0186
449.0,0.0192
450.0,0.0198
451.0,0.0205
452.0,0.0211
453.0,0.0217
454.0,0.0224
455.0,0.0232
456.0,0.0239
457.0,0.0245
458.0,0.0251
459.0,0.0259
460.0,0.0266
461.0,0.0272
462.0,0.0280
463.0,0.0288
464.0,0.0295
465.0,0.0303
466.0,0.0309
467.0,0.0317
468.0,0.0324
469.0,0.0331
470.0,0.0338
471.0,0.0346
472.0,0.0354
473.0,0.0360
474.0,0.0368
475.0,0.0375
476.0,0.0383
477.0,0.0391
478.0,0.0399
479.0,0.0407
480.0,0.0415
481.0,0.0423
482.0,0.0431
483.0,0.0440
484.0,0.0447
485.0,0.0455
486.0,0.0463
487.0,0.0471
488.0,0.0478
489.0,0.0485
490.0,0.0491
491.0,0.0498
492.0,0.0503
493.0,0.0509
494.0,0.0514
495.0,0.0519
496.0,0.0523
497.0,0.0525
498.0,0.0530
499.0,0.0532
500.0,0.0535
501.0,0.0537
502.0,0.0540
503.0,0.0541
504.0,0.0543
505.0,0.0544
506.0,0.0545
507.0,0.0546
508.0,0.0548
509.0,0.0549
510.0,0.0550
511.0,0.0551
512.0,0.0553
513.0,0.0556
514.0,0.0560
515.0,0.0563
516.0,0.0566
517.0,0.0570
518.0,0.0575
519.0,0.0581
520.0,0.0588
521.0,0.0596
522.0,0.0605
523.0,0.0613
524.0,0.0623
525.0,0.0634
526.0,0.0646
527.0,0.0659
528.0,0.0673
529.0,0.0688
530.0,0.0706
531.0,0.0722
532.0,0.0741
533.0,0.0761
534.0,0.0781
535.0,0.0806
536.0,0.0829
537.0,0.0853
538.0,0.0880
539.0,0.0907
540.0,0.0937
541.0,0.0968
542.0,0.1000
543.0,0.1032
544.0,0.1068
545.0,0.1105
546.0,0.1142
547.0,0.1183
548.0,0.1224
549.0,0.1267
550.0,0.1312
551.0,0.1361
552.0,0.1408
553.0,0.1456
554.0,0.1507
555.0,0.1557
556.0,0.1609
557.0,0.1660
558.0,0.1713
559.0,0.1765
560.0,0.1820
561.0,0.1871
562.0,0.1923
563.0,0.1980
564.0,0.2036
565.0,0.2092
566.0,0.2150
567.0,0.2209
568.0,0.2270
569.0,0.2334
570.0,0.2401
571.0,0.2470
572.0,0.2546
573.0,0.2624
574.0,0.2706
575.0,0.2792
576.0,0.2880
577.0,0.2975
578.0,0.3072
579.0,0.3174
580.0,0.3283
581.0,0.3393
582.0,0.3511
583.0,0.3631
584.0,0.3752
585.0,0.3883
586.0,0.4015
587.0,0.4153
588.0,0.4298
589.0,0.4448
590.0,0.4601
591.0,0.4761
592.0,0.4925
593.0,0.5091
594.0,0.5261
595.0,0.5435
596.0,0.5616
597.0,0.5794
598.0,0.5964
599.0,0.6140
600.0,0.6306
601.0,0.6477
602.0,0.6637
603.0,0.6786
604.0,0.6930
605.0,0.7065
606.0,0.7184
607.0,0.7296
608.0,0.7394
609.0,0.7477
610.0,0.7550
611.0,0.7606
612.0,0.7650
613.0,0.7684
614.0,0.7706
615.0,0.7720
616.0,0.7727
617.0,0.7727
618.0,0.7721
619.0,0.7713
620.0,0.7707
621.0,0.7700
622.0,0.7697
623.0,0.7698
624.0,0.7706
625.0,0.7723
626.0,0.7750
627.0,0.7785
628.0,0.7830
629.0,0.7888
630.0,0.7959
631.0,0.8038
632.0,0.8129
633.0,0.8236
634.0,0.8353
635.0,0.8485
636.0,0.8634
637.0,0.8790
638.0,0.8959
639.0,0.9142
640.0,0.9330
641.0,0.9536
642.0,0.9747
643.0,0.9966
644.0,1.0192
645.0,1.0416
646.0,1.0634
647.0,1.0866
648.0,1.1090
649.0,1.1308
650.0,1.1522
651.0,1.1735
652.0,1.1938
653.0,1.2136
654.0,1.2324
655.0,1.2498
656.0,1.2669
657.0,1.2831
658.0,1.2978
659.0,1.3118
660.0,1.3245
661.0,1.3345
662.0,1.3422
663.0,1.3472
664.0,1.3481
665.0,1.3450
666.0,1.3377
667.0,1.3250
668.0,1.3073
669.0,1.2841
670.0,1.2557
671.0,1.2215
672.0,1.1829
673.0,1.1396
674.0,1.0911
675.0,1.0400
676.0,0.9870
677.0,0.9302
678.0,0.8724
679.0,0.8126
680.0,0.7540
681.0,0.6975
682.0,0.6425
683.0,0.5894
684.0,0.5391
685.0,0.4908
686.0,0.4468
687.0,0.4051
688.0,0.3667
689.0,0.3334
690.0,0.3023
691.0,0.2733
692.0,0.2467
693.0,0.2232
694.0,0.2016
695.0,0.1823
696.0,0.1646
697.0,0.1493
698.0,0.1355
699.0,0.1224
700.0,0.1110
701.0,0.1011
702.0,0.0916
703.0,0.0835
704.0,0.0761
705.0,0.0691
706.0,0.0632
707.0,0.0580
708.0,0.0532
709.0,0.0489
710.0,0.0451
711.0,0.0417
712.0,0.0388
713.0,0.0360
714.0,0.0337
715.0,0.0314
716.0,0.0293
717.0,0.0275
718.0,0.0259
719.0,0.0243
720.0,0.0230
721.0,0.0217
722.0,0.0203
723.0,0.0193
724.0,0.0182
725.0,0.0174
726.0,0.0164
727.0,0.0155
728.0,0.0148
729.0,0.0141
730.0,0.0133
731.0,0.0128
732.0,0.0121
733.0,0.0117
734.0,0.0112
735.0,0.0107
736.0,0.0102
737.0,0.0097
738.0,0.0094
739.0,0.0089
740.0,0.0087
741.0,0.0082
742.0,0.0080
743.0,0.0078
744.0,0.0074
745.0,0.0072
746.0,0.0068
747.0,0.0066
748.0,0.0062
749.0,0.0061
750.0,0.0058
751.0,0.0055
752.0,0.0054
753.0,0.0051
754.0,0.0049
755.0,0.0047
756.0,0.0048
757.0,0.0045
758.0,0.0044
759.0,0.0042
760.0,0.0039
761.0,0.0036
762.0,0.0036
763.0,0.0036
764.0,0.0036
765.0,0.0033
766.0,0.0033
767.0,0.0031
768.0,0.0030
769.0,0.0029
770.0,0.0028
771.0,0.0029
772.0,0.0027
773.0,0.0027
774.0,0.0025
775.0,0.0023
776.0,0.0023
777.0,0.0023
778.0,0.0021
779.0,0.0022
780.0,0.0020
781.0,0.0019
782.0,0.0018
783.0,0.0017
784.0,0.0018
785.0,0.0017
786.0,0.0016
787.0,0.0015
788.0,0.0014
789.0,0.0014
790.0,0.0013
791.0,0.0013
792.0,0.0012
793.0,0.0011
794.0,0.0011
795.0,0.0011
796.0,0.0009
797.0,0.0008
798.0,0.0009
799.0,0.0006
800.0,0.0007
