Summary
[Data Information]
Data is:,Measurement Data
Dataset Name:,RawData
Sample Name:,prova2_7725_20min
Sample ID
Option
Analyst
Date/Time:,07/07/2025 15:57:29
Comments
Parameter File Name:,4NP_bezzetto.vspm
Report File Name
[Software Information]
Software Name:,LabSolutions UV-Vis
Version:,1.13
[Instrument Information]
Instrument Name:,UV-2600i
Instrument Type:,UV-2600 Series
Model (S/N):,UV-2600i (A12595901003)

Parameter
[Measurement]
Start:,800 nm
End:,300 nm
Data Interval:,1.0
Scan Speed:,Medium speed
Spectrum Type:,Absorbance
[Accessories]
Accessories:,None
[Advanced]
Slit Width:,2.0
Detector Unit:,Direct Receiving of Light
Light Source Switch Wavelength:,323
S/R Switch:,Standard
Stair Correction:,ON
[Repeat]
Repeat Measurement:,OFF
[Post-processing]
Spectrum Transformation:,OFF
Data Processing Table:,OFF
Print:,OFF

Wavelength (nm),Absorbance
300.0,0.1953
301.0,0.1819
302.0,0.1685
303.0,0.1563
304.0,0.1451
305.0,0.1353
306.0,0.1270
307.0,0.1193
308.0,0.1134
309.0,0.1082
310.0,0.1034
311.0,0.1001
312.0,0.0974
313.0,0.0951
314.0,0.0932
315.0,0.0915
316.0,0.0898
317.0,0.0883
318.0,0.0871
319.0,0.0856
320.0,0.0843
321.0,0.0830
322.0,0.0818
323.0,0.0804
324.0,0.0791
325.0,0.0775
326.0,0.0758
327.0,0.0737
328.0,0.0714
329.0,0.0687
330.0,0.0661
331.0,0.0631
332.0,0.0600
333.0,0.0568
334.0,0.0537
335.0,0.0504
336.0,0.0475
337.0,0.0447
338.0,0.0421
339.0,0.0399
340.0,0.0378
341.0,0.0361
342.0,0.0344
343.0,0.0328
344.0,0.0316
345.0,0.0306
346.0,0.0294
347.0,0.0284
348.0,0.0275
349.0,0.0267
350.0,0.0261
351.0,0.0252
352.0,0.0248
353.0,0.0241
354.0,0.0237
355.0,0.0232
356.0,0.0229
357.0,0.0223
358.0,0.0219
359.0,0.0216
360.0,0.0213
361.0,0.0210
362.0,0.0207
363.0,0.0204
364.0,0.0201
365.0,0.0200
366.0,0.0198
367.0,0.0197
368.0,0.0197
369.0,0.0195
370.0,0.0193
371.0,0.0194
372.0,0.0194
373.0,0.0190
374.0,0.0191
375.0,0.0190
376.0,0.0189
377.0,0.0188
378.0,0.0188
379.0,0.0189
380.0,0.0190
381.0,0.0188
382.0,0.0188
383.0,0.0188
384.0,0.0188
385.0,0.0186
386.0,0.0186
387.0,0.0187
388.0,0.0185
389.0,0.0184
390.0,0.0182
391.0,0.0181
392.0,0.0180
393.0,0.0178
394.0,0.0175
395.0,0.0174
396.0,0.0173
397.0,0.0170
398.0,0.0168
399.0,0.0166
400.0,0.0164
401.0,0.0163
402.0,0.0161
403.0,0.0159
404.0,0.0158
405.0,0.0157
406.0,0.0155
407.0,0.0154
408.0,0.0155
409.0,0.0154
410.0,0.0154
411.0,0.0153
412.0,0.0154
413.0,0.0154
414.0,0.0155
415.0,0.0156
416.0,0.0157
417.0,0.0158
418.0,0.0159
419.0,0.0160
420.0,0.0162
421.0,0.0164
422.0,0.0166
423.0,0.0167
424.0,0.0169
425.0,0.0171
426.0,0.0173
427.0,0.0175
428.0,0.0177
429.0,0.0179
430.0,0.0182
431.0,0.0184
432.0,0.0186
433.0,0.0189
434.0,0.0192
435.0,0.0194
436.0,0.0197
437.0,0.0200
438.0,0.0202
439.0,0.0204
440.0,0.0208
441.0,0.0209
442.0,0.0212
443.0,0.0213
444.0,0.0218
445.0,0.0219
446.0,0.0223
447.0,0.0227
448.0,0.0229
449.0,0.0231
450.0,0.0234
451.0,0.0237
452.0,0.0240
453.0,0.0242
454.0,0.0245
455.0,0.0249
456.0,0.0252
457.0,0.0255
458.0,0.0257
459.0,0.0260
460.0,0.0264
461.0,0.0267
462.0,0.0270
463.0,0.0274
464.0,0.0277
465.0,0.0280
466.0,0.0282
467.0,0.0285
468.0,0.0290
469.0,0.0293
470.0,0.0295
471.0,0.0298
472.0,0.0302
473.0,0.0305
474.0,0.0308
475.0,0.0311
476.0,0.0314
477.0,0.0317
478.0,0.0320
479.0,0.0323
480.0,0.0327
481.0,0.0328
482.0,0.0331
483.0,0.0335
484.0,0.0338
485.0,0.0340
486.0,0.0344
487.0,0.0346
488.0,0.0348
489.0,0.0351
490.0,0.0354
491.0,0.0356
492.0,0.0358
493.0,0.0362
494.0,0.0363
495.0,0.0367
496.0,0.0369
497.0,0.0370
498.0,0.0374
499.0,0.0376
500.0,0.0379
501.0,0.0382
502.0,0.0384
503.0,0.0388
504.0,0.0392
505.0,0.0393
506.0,0.0398
507.0,0.0401
508.0,0.0405
509.0,0.0409
510.0,0.0412
511.0,0.0417
512.0,0.0421
513.0,0.0426
514.0,0.0432
515.0,0.0437
516.0,0.0442
517.0,0.0448
518.0,0.0453
519.0,0.0460
520.0,0.0467
521.0,0.0474
522.0,0.0483
523.0,0.0490
524.0,0.0498
525.0,0.0507
526.0,0.0516
527.0,0.0525
528.0,0.0537
529.0,0.0548
530.0,0.0559
531.0,0.0570
532.0,0.0582
533.0,0.0595
534.0,0.0607
535.0,0.0622
536.0,0.0635
537.0,0.0649
538.0,0.0665
539.0,0.0681
540.0,0.0697
541.0,0.0714
542.0,0.0730
543.0,0.0749
544.0,0.0767
545.0,0.0785
546.0,0.0805
547.0,0.0825
548.0,0.0847
549.0,0.0868
550.0,0.0889
551.0,0.0914
552.0,0.0936
553.0,0.0960
554.0,0.0986
555.0,0.1011
556.0,0.1037
557.0,0.1062
558.0,0.1090
559.0,0.1116
560.0,0.1145
561.0,0.1172
562.0,0.1199
563.0,0.1230
564.0,0.1260
565.0,0.1289
566.0,0.1321
567.0,0.1351
568.0,0.1384
569.0,0.1417
570.0,0.1451
571.0,0.1486
572.0,0.1525
573.0,0.1562
574.0,0.1601
575.0,0.1641
576.0,0.1681
577.0,0.1722
578.0,0.1764
579.0,0.1807
580.0,0.1851
581.0,0.1894
582.0,0.1939
583.0,0.1984
584.0,0.2027
585.0,0.2072
586.0,0.2118
587.0,0.2162
588.0,0.2209
589.0,0.2256
590.0,0.2302
591.0,0.2349
592.0,0.2396
593.0,0.2443
594.0,0.2489
595.0,0.2535
596.0,0.2582
597.0,0.2629
598.0,0.2672
599.0,0.2716
600.0,0.2756
601.0,0.2798
602.0,0.2838
603.0,0.2876
604.0,0.2911
605.0,0.2948
606.0,0.2980
607.0,0.3015
608.0,0.3045
609.0,0.3074
610.0,0.3103
611.0,0.3130
612.0,0.3155
613.0,0.3181
614.0,0.3205
615.0,0.3228
616.0,0.3252
617.0,0.3273
618.0,0.3295
619.0,0.3317
620.0,0.3339
621.0,0.3360
622.0,0.3382
623.0,0.3404
624.0,0.3426
625.0,0.3449
626.0,0.3473
627.0,0.3498
628.0,0.3522
629.0,0.3548
630.0,0.3574
631.0,0.3599
632.0,0.3624
633.0,0.3650
634.0,0.3673
635.0,0.3697
636.0,0.3722
637.0,0.3743
638.0,0.3763
639.0,0.3783
640.0,0.3801
641.0,0.3819
642.0,0.3835
643.0,0.3850
644.0,0.3864
645.0,0.3875
646.0,0.3885
647.0,0.3891
648.0,0.3895
649.0,0.3896
650.0,0.3891
651.0,0.3885
652.0,0.3873
653.0,0.3857
654.0,0.3836
655.0,0.3811
656.0,0.3778
657.0,0.3742
658.0,0.3702
659.0,0.3653
660.0,0.3600
661.0,0.3542
662.0,0.3478
663.0,0.3411
664.0,0.3338
665.0,0.3259
666.0,0.3176
667.0,0.3087
668.0,0.2993
669.0,0.2894
670.0,0.2789
671.0,0.2678
672.0,0.2563
673.0,0.2445
674.0,0.2320
675.0,0.2195
676.0,0.2071
677.0,0.1942
678.0,0.1815
679.0,0.1687
680.0,0.1562
681.0,0.1444
682.0,0.1331
683.0,0.1223
684.0,0.1122
685.0,0.1025
686.0,0.0936
687.0,0.0852
688.0,0.0775
689.0,0.0709
690.0,0.0647
691.0,0.0590
692.0,0.0537
693.0,0.0490
694.0,0.0448
695.0,0.0409
696.0,0.0373
697.0,0.0343
698.0,0.0313
699.0,0.0287
700.0,0.0263
701.0,0.0243
702.0,0.0222
703.0,0.0206
704.0,0.0190
705.0,0.0175
706.0,0.0161
707.0,0.0150
708.0,0.0139
709.0,0.0129
710.0,0.0120
711.0,0.0111
712.0,0.0106
713.0,0.0098
714.0,0.0092
715.0,0.0087
716.0,0.0080
717.0,0.0076
718.0,0.0072
719.0,0.0068
720.0,0.0065
721.0,0.0061
722.0,0.0058
723.0,0.0055
724.0,0.0051
725.0,0.0049
726.0,0.0046
727.0,0.0045
728.0,0.0042
729.0,0.0041
730.0,0.0038
731.0,0.0036
732.0,0.0035
733.0,0.0033
734.0,0.0032
735.0,0.0032
736.0,0.0029
737.0,0.0028
738.0,0.0027
739.0,0.0025
740.0,0.0024
741.0,0.0024
742.0,0.0023
743.0,0.0023
744.0,0.0021
745.0,0.0021
746.0,0.0019
747.0,0.0018
748.0,0.0018
749.0,0.0017
750.0,0.0018
751.0,0.0015
752.0,0.0016
753.0,0.0015
754.0,0.0015
755.0,0.0014
756.0,0.0014
757.0,0.0013
758.0,0.0015
759.0,0.0013
760.0,0.0011
761.0,0.0010
762.0,0.0009
763.0,0.0010
764.0,0.0010
765.0,0.0010
766.0,0.0009
767.0,0.0010
768.0,0.0008
769.0,0.0007
770.0,0.0007
771.0,0.0007
772.0,0.0007
773.0,0.0007
774.0,0.0007
775.0,0.0006
776.0,0.0007
777.0,0.0006
778.0,0.0005
779.0,0.0005
780.0,0.0005
781.0,0.0004
782.0,0.0003
783.0,0.0004
784.0,0.0005
785.0,0.0004
786.0,0.0003
787.0,0.0004
788.0,0.0002
789.0,0.0003
790.0,0.0003
791.0,0.0002
792.0,0.0002
793.0,0.0000
794.0,0.0001
795.0,0.0002
796.0,0.0001
797.0,0.0001
798.0,0.0001
799.0,-0.0001
800.0,0.0001
