Summary
[Data Information]
Data is:,Measurement Data
Dataset Name:,RawData
Sample Name:,prova7_8725_0min
Sample ID
Option
Analyst
Date/Time:,08/07/2025 15:51:57
Comments
Parameter File Name:,4NP_bezzetto.vspm
Report File Name
[Software Information]
Software Name:,LabSolutions UV-Vis
Version:,1.13
[Instrument Information]
Instrument Name:,UV-2600i
Instrument Type:,UV-2600 Series
Model (S/N):,UV-2600i (A12595901003)

Parameter
[Measurement]
Start:,800 nm
End:,400 nm
Data Interval:,1.0
Scan Speed:,Medium speed
Spectrum Type:,Absorbance
[Accessories]
Accessories:,None
[Advanced]
Slit Width:,2.0
Detector Unit:,Direct Receiving of Light
Light Source Switch Wavelength:,323
S/R Switch:,Standard
Stair Correction:,ON
[Repeat]
Repeat Measurement:,OFF
[Post-processing]
Spectrum Transformation:,OFF
Data Processing Table:,OFF
Print:,OFF

Wavelength (nm),Absorbance
400.0,0.0058
401.0,0.0054
402.0,0.0050
403.0,0.0045
404.0,0.0042
405.0,0.0037
406.0,0.0034
407.0,0.0029
408.0,0.0026
409.0,0.0022
410.0,0.0020
411.0,0.0016
412.0,0.0015
413.0,0.0012
414.0,0.0012
415.0,0.0010
416.0,0.0010
417.0,0.0009
418.0,0.0010
419.0,0.0011
420.0,0.0010
421.0,0.0011
422.0,0.0012
423.0,0.0012
424.0,0.0014
425.0,0.0015
426.0,0.0017
427.0,0.0019
428.0,0.0019
429.0,0.0021
430.0,0.0023
431.0,0.0025
432.0,0.0027
433.0,0.0028
434.0,0.0032
435.0,0.0034
436.0,0.0036
437.0,0.0037
438.0,0.0041
439.0,0.0043
440.0,0.0044
441.0,0.0047
442.0,0.0051
443.0,0.0055
444.0,0.0057
445.0,0.0060
446.0,0.0062
447.0,0.0067
448.0,0.0069
449.0,0.0072
450.0,0.0076
451.0,0.0080
452.0,0.0082
453.0,0.0086
454.0,0.0090
455.0,0.0093
456.0,0.0097
457.0,0.0101
458.0,0.0104
459.0,0.0108
460.0,0.0112
461.0,0.0116
462.0,0.0120
463.0,0.0123
464.0,0.0126
465.0,0.0130
466.0,0.0133
467.0,0.0137
468.0,0.0141
469.0,0.0146
470.0,0.0149
471.0,0.0152
472.0,0.0156
473.0,0.0160
474.0,0.0164
475.0,0.0168
476.0,0.0171
477.0,0.0175
478.0,0.0179
479.0,0.0182
480.0,0.0186
481.0,0.0190
482.0,0.0195
483.0,0.0199
484.0,0.0202
485.0,0.0207
486.0,0.0210
487.0,0.0214
488.0,0.0219
489.0,0.0222
490.0,0.0225
491.0,0.0227
492.0,0.0232
493.0,0.0234
494.0,0.0236
495.0,0.0238
496.0,0.0240
497.0,0.0242
498.0,0.0244
499.0,0.0245
500.0,0.0246
501.0,0.0248
502.0,0.0248
503.0,0.0249
504.0,0.0251
505.0,0.0250
506.0,0.0251
507.0,0.0252
508.0,0.0251
509.0,0.0253
510.0,0.0253
511.0,0.0255
512.0,0.0255
513.0,0.0257
514.0,0.0257
515.0,0.0259
516.0,0.0261
517.0,0.0263
518.0,0.0266
519.0,0.0268
520.0,0.0271
521.0,0.0275
522.0,0.0279
523.0,0.0283
524.0,0.0287
525.0,0.0293
526.0,0.0298
527.0,0.0305
528.0,0.0312
529.0,0.0318
530.0,0.0326
531.0,0.0335
532.0,0.0343
533.0,0.0354
534.0,0.0363
535.0,0.0375
536.0,0.0385
537.0,0.0398
538.0,0.0411
539.0,0.0423
540.0,0.0437
541.0,0.0452
542.0,0.0468
543.0,0.0484
544.0,0.0501
545.0,0.0517
546.0,0.0535
547.0,0.0555
548.0,0.0574
549.0,0.0596
550.0,0.0617
551.0,0.0641
552.0,0.0663
553.0,0.0686
554.0,0.0710
555.0,0.0735
556.0,0.0759
557.0,0.0785
558.0,0.0810
559.0,0.0835
560.0,0.0861
561.0,0.0887
562.0,0.0914
563.0,0.0940
564.0,0.0967
565.0,0.0995
566.0,0.1023
567.0,0.1052
568.0,0.1082
569.0,0.1113
570.0,0.1146
571.0,0.1180
572.0,0.1216
573.0,0.1254
574.0,0.1293
575.0,0.1335
576.0,0.1376
577.0,0.1421
578.0,0.1467
579.0,0.1516
580.0,0.1569
581.0,0.1621
582.0,0.1676
583.0,0.1733
584.0,0.1788
585.0,0.1851
586.0,0.1912
587.0,0.1978
588.0,0.2045
589.0,0.2115
590.0,0.2185
591.0,0.2258
592.0,0.2334
593.0,0.2412
594.0,0.2492
595.0,0.2573
596.0,0.2654
597.0,0.2736
598.0,0.2816
599.0,0.2896
600.0,0.2975
601.0,0.3055
602.0,0.3131
603.0,0.3201
604.0,0.3271
605.0,0.3336
606.0,0.3394
607.0,0.3451
608.0,0.3503
609.0,0.3548
610.0,0.3590
611.0,0.3625
612.0,0.3653
613.0,0.3679
614.0,0.3700
615.0,0.3716
616.0,0.3731
617.0,0.3743
618.0,0.3754
619.0,0.3763
620.0,0.3773
621.0,0.3783
622.0,0.3795
623.0,0.3809
624.0,0.3827
625.0,0.3848
626.0,0.3874
627.0,0.3905
628.0,0.3938
629.0,0.3978
630.0,0.4024
631.0,0.4074
632.0,0.4132
633.0,0.4195
634.0,0.4261
635.0,0.4336
636.0,0.4417
637.0,0.4503
638.0,0.4596
639.0,0.4696
640.0,0.4798
641.0,0.4908
642.0,0.5017
643.0,0.5132
644.0,0.5251
645.0,0.5368
646.0,0.5482
647.0,0.5604
648.0,0.5721
649.0,0.5832
650.0,0.5942
651.0,0.6052
652.0,0.6153
653.0,0.6255
654.0,0.6349
655.0,0.6437
656.0,0.6523
657.0,0.6603
658.0,0.6676
659.0,0.6747
660.0,0.6808
661.0,0.6855
662.0,0.6891
663.0,0.6912
664.0,0.6914
665.0,0.6897
666.0,0.6854
667.0,0.6787
668.0,0.6692
669.0,0.6572
670.0,0.6422
671.0,0.6245
672.0,0.6047
673.0,0.5824
674.0,0.5576
675.0,0.5306
676.0,0.5026
677.0,0.4735
678.0,0.4441
679.0,0.4134
680.0,0.3835
681.0,0.3542
682.0,0.3253
683.0,0.2977
684.0,0.2718
685.0,0.2472
686.0,0.2246
687.0,0.2034
688.0,0.1835
689.0,0.1660
690.0,0.1500
691.0,0.1352
692.0,0.1219
693.0,0.1095
694.0,0.0984
695.0,0.0888
696.0,0.0796
697.0,0.0715
698.0,0.0645
699.0,0.0579
700.0,0.0521
701.0,0.0472
702.0,0.0424
703.0,0.0382
704.0,0.0344
705.0,0.0310
706.0,0.0280
707.0,0.0254
708.0,0.0228
709.0,0.0208
710.0,0.0188
711.0,0.0172
712.0,0.0157
713.0,0.0144
714.0,0.0131
715.0,0.0120
716.0,0.0111
717.0,0.0102
718.0,0.0094
719.0,0.0086
720.0,0.0080
721.0,0.0074
722.0,0.0069
723.0,0.0065
724.0,0.0058
725.0,0.0054
726.0,0.0050
727.0,0.0048
728.0,0.0043
729.0,0.0041
730.0,0.0037
731.0,0.0035
732.0,0.0035
733.0,0.0032
734.0,0.0030
735.0,0.0028
736.0,0.0025
737.0,0.0025
738.0,0.0023
739.0,0.0021
740.0,0.0019
741.0,0.0019
742.0,0.0018
743.0,0.0018
744.0,0.0018
745.0,0.0016
746.0,0.0015
747.0,0.0013
748.0,0.0013
749.0,0.0013
750.0,0.0012
751.0,0.0011
752.0,0.0010
753.0,0.0009
754.0,0.0009
755.0,0.0009
756.0,0.0009
757.0,0.0008
758.0,0.0008
759.0,0.0007
760.0,0.0006
761.0,0.0006
762.0,0.0005
763.0,0.0004
764.0,0.0004
765.0,0.0006
766.0,0.0003
767.0,0.0003
768.0,0.0004
769.0,0.0003
770.0,0.0002
771.0,0.0002
772.0,0.0004
773.0,0.0001
774.0,0.0002
775.0,0.0004
776.0,0.0002
777.0,0.0004
778.0,0.0001
779.0,0.0001
780.0,0.0000
781.0,0.0002
782.0,0.0002
783.0,0.0001
784.0,-0.0001
785.0,0.0001
786.0,0.0003
787.0,-0.0001
788.0,0.0001
789.0,0.0001
790.0,0.0002
791.0,0.0001
792.0,0.0001
793.0,-0.0000
794.0,0.0000
795.0,-0.0002
796.0,-0.0000
797.0,-0.0002
798.0,-0.0001
799.0,0.0002
800.0,0.0001
