Summary
[Data Information]
Data is:,Measurement Data
Dataset Name:,RawData
Sample Name:,prova_bc_27825_0min
Sample ID
Option
Analyst
Date/Time:,27/08/2025 18:48:42
Comments
Parameter File Name:,4NP_bezzetto.vspm
Report File Name
[Software Information]
Software Name:,LabSolutions UV-Vis
Version:,1.13
[Instrument Information]
Instrument Name:,UV-2600i
Instrument Type:,UV-2600 Series
Model (S/N):,UV-2600i (A12595901003)

Parameter
[Measurement]
Start:,800 nm
End:,400 nm
Data Interval:,1.0
Scan Speed:,Medium speed
Spectrum Type:,Absorbance
[Accessories]
Accessories:,None
[Advanced]
Slit Width:,2.0
Detector Unit:,Direct Receiving of Light
Light Source Switch Wavelength:,323
S/R Switch:,Standard
Stair Correction:,ON
[Repeat]
Repeat Measurement:,OFF
[Post-processing]
Spectrum Transformation:,OFF
Data Processing Table:,OFF
Print:,OFF

Wavelength (nm),Absorbance
400.0,0.0171
401.0,0.0165
402.0,0.0156
403.0,0.0148
404.0,0.0138
405.0,0.0131
406.0,0.0121
407.0,0.0112
408.0,0.0104
409.0,0.0098
410.0,0.0091
411.0,0.0086
412.0,0.0082
413.0,0.0078
414.0,0.0075
415.0,0.0073
416.0,0.0071
417.0,0.0071
418.0,0.0071
419.0,0.0071
420.0,0.0071
421.0,0.0073
422.0,0.0075
423.0,0.0077
424.0,0.0078
425.0,0.0082
426.0,0.0083
427.0,0.0086
428.0,0.0090
429.0,0.0092
430.0,0.0095
431.0,0.0099
432.0,0.0103
433.0,0.0106
434.0,0.0111
435.0,0.0115
436.0,0.0119
437.0,0.0124
438.0,0.0128
439.0,0.0133
440.0,0.0138
441.0,0.0143
442.0,0.0148
443.0,0.0153
444.0,0.0159
445.0,0.0165
446.0,0.0170
447.0,0.0177
448.0,0.0184
449.0,0.0190
450.0,0.0196
451.0,0.0202
452.0,0.0209
453.0,0.0215
454.0,0.0222
455.0,0.0229
456.0,0.0236
457.0,0.0244
458.0,0.0250
459.0,0.0258
460.0,0.0266
461.0,0.0272
462.0,0.0279
463.0,0.0287
464.0,0.0293
465.0,0.0303
466.0,0.0309
467.0,0.0316
468.0,0.0324
469.0,0.0330
470.0,0.0338
471.0,0.0346
472.0,0.0353
473.0,0.0360
474.0,0.0367
475.0,0.0375
476.0,0.0383
477.0,0.0391
478.0,0.0399
479.0,0.0406
480.0,0.0414
481.0,0.0422
482.0,0.0431
483.0,0.0439
484.0,0.0448
485.0,0.0455
486.0,0.0463
487.0,0.0472
488.0,0.0478
489.0,0.0485
490.0,0.0493
491.0,0.0498
492.0,0.0505
493.0,0.0511
494.0,0.0515
495.0,0.0520
496.0,0.0524
497.0,0.0529
498.0,0.0532
499.0,0.0535
500.0,0.0538
501.0,0.0539
502.0,0.0541
503.0,0.0544
504.0,0.0546
505.0,0.0548
506.0,0.0548
507.0,0.0550
508.0,0.0551
509.0,0.0552
510.0,0.0554
511.0,0.0556
512.0,0.0558
513.0,0.0560
514.0,0.0563
515.0,0.0567
516.0,0.0572
517.0,0.0576
518.0,0.0582
519.0,0.0588
520.0,0.0595
521.0,0.0602
522.0,0.0610
523.0,0.0620
524.0,0.0629
525.0,0.0640
526.0,0.0653
527.0,0.0666
528.0,0.0680
529.0,0.0695
530.0,0.0712
531.0,0.0729
532.0,0.0748
533.0,0.0767
534.0,0.0789
535.0,0.0812
536.0,0.0836
537.0,0.0861
538.0,0.0888
539.0,0.0916
540.0,0.0945
541.0,0.0975
542.0,0.1007
543.0,0.1040
544.0,0.1075
545.0,0.1111
546.0,0.1149
547.0,0.1191
548.0,0.1233
549.0,0.1275
550.0,0.1319
551.0,0.1367
552.0,0.1414
553.0,0.1462
554.0,0.1511
555.0,0.1563
556.0,0.1614
557.0,0.1666
558.0,0.1716
559.0,0.1769
560.0,0.1822
561.0,0.1874
562.0,0.1927
563.0,0.1982
564.0,0.2038
565.0,0.2094
566.0,0.2151
567.0,0.2210
568.0,0.2269
569.0,0.2332
570.0,0.2400
571.0,0.2469
572.0,0.2544
573.0,0.2621
574.0,0.2701
575.0,0.2785
576.0,0.2875
577.0,0.2967
578.0,0.3065
579.0,0.3169
580.0,0.3277
581.0,0.3385
582.0,0.3504
583.0,0.3623
584.0,0.3745
585.0,0.3875
586.0,0.4007
587.0,0.4146
588.0,0.4290
589.0,0.4438
590.0,0.4588
591.0,0.4752
592.0,0.4914
593.0,0.5085
594.0,0.5253
595.0,0.5423
596.0,0.5602
597.0,0.5779
598.0,0.5951
599.0,0.6128
600.0,0.6296
601.0,0.6465
602.0,0.6624
603.0,0.6769
604.0,0.6916
605.0,0.7048
606.0,0.7165
607.0,0.7277
608.0,0.7376
609.0,0.7457
610.0,0.7527
611.0,0.7581
612.0,0.7623
613.0,0.7656
614.0,0.7677
615.0,0.7688
616.0,0.7692
617.0,0.7689
618.0,0.7683
619.0,0.7673
620.0,0.7663
621.0,0.7655
622.0,0.7650
623.0,0.7649
624.0,0.7657
625.0,0.7671
626.0,0.7694
627.0,0.7729
628.0,0.7771
629.0,0.7828
630.0,0.7895
631.0,0.7975
632.0,0.8064
633.0,0.8168
634.0,0.8283
635.0,0.8415
636.0,0.8561
637.0,0.8715
638.0,0.8884
639.0,0.9065
640.0,0.9251
641.0,0.9452
642.0,0.9663
643.0,0.9876
644.0,1.0104
645.0,1.0326
646.0,1.0547
647.0,1.0776
648.0,1.0998
649.0,1.1213
650.0,1.1431
651.0,1.1639
652.0,1.1838
653.0,1.2035
654.0,1.2223
655.0,1.2395
656.0,1.2563
657.0,1.2725
658.0,1.2871
659.0,1.3013
660.0,1.3137
661.0,1.3237
662.0,1.3317
663.0,1.3364
664.0,1.3375
665.0,1.3349
666.0,1.3270
667.0,1.3146
668.0,1.2968
669.0,1.2738
670.0,1.2455
671.0,1.2120
672.0,1.1734
673.0,1.1304
674.0,1.0820
675.0,1.0309
676.0,0.9776
677.0,0.9222
678.0,0.8656
679.0,0.8059
680.0,0.7469
681.0,0.6912
682.0,0.6359
683.0,0.5831
684.0,0.5339
685.0,0.4870
686.0,0.4430
687.0,0.4019
688.0,0.3637
689.0,0.3307
690.0,0.2995
691.0,0.2710
692.0,0.2456
693.0,0.2216
694.0,0.2000
695.0,0.1814
696.0,0.1637
697.0,0.1483
698.0,0.1349
699.0,0.1221
700.0,0.1109
701.0,0.1011
702.0,0.0916
703.0,0.0833
704.0,0.0762
705.0,0.0694
706.0,0.0635
707.0,0.0584
708.0,0.0535
709.0,0.0493
710.0,0.0455
711.0,0.0421
712.0,0.0389
713.0,0.0362
714.0,0.0336
715.0,0.0314
716.0,0.0294
717.0,0.0275
718.0,0.0257
719.0,0.0242
720.0,0.0227
721.0,0.0214
722.0,0.0201
723.0,0.0190
724.0,0.0178
725.0,0.0169
726.0,0.0160
727.0,0.0150
728.0,0.0142
729.0,0.0135
730.0,0.0128
731.0,0.0122
732.0,0.0114
733.0,0.0110
734.0,0.0104
735.0,0.0098
736.0,0.0093
737.0,0.0089
738.0,0.0085
739.0,0.0080
740.0,0.0078
741.0,0.0073
742.0,0.0070
743.0,0.0067
744.0,0.0064
745.0,0.0060
746.0,0.0057
747.0,0.0054
748.0,0.0052
749.0,0.0049
750.0,0.0048
751.0,0.0045
752.0,0.0043
753.0,0.0041
754.0,0.0039
755.0,0.0039
756.0,0.0035
757.0,0.0034
758.0,0.0033
759.0,0.0032
760.0,0.0030
761.0,0.0026
762.0,0.0025
763.0,0.0024
764.0,0.0023
765.0,0.0021
766.0,0.0020
767.0,0.0018
768.0,0.0017
769.0,0.0018
770.0,0.0017
771.0,0.0015
772.0,0.0014
773.0,0.0013
774.0,0.0013
775.0,0.0011
776.0,0.0011
777.0,0.0012
778.0,0.0011
779.0,0.0009
780.0,0.0008
781.0,0.0008
782.0,0.0008
783.0,0.0008
784.0,0.0006
785.0,0.0006
786.0,0.0005
787.0,0.0007
788.0,0.0005
789.0,0.0005
790.0,0.0004
791.0,0.0003
792.0,0.0004
793.0,0.0004
794.0,0.0003
795.0,0.0003
796.0,0.0001
797.0,0.0001
798.0,0.0001
799.0,0.0003
800.0,0.0001
