Summary
[Data Information]
Data is:,Measurement Data
Dataset Name:,RawData
Sample Name:,10ppmMB
Sample ID
Option
Analyst
Date/Time:,28/08/2025 11:08:59
Comments
Parameter File Name:,4NP_bezzetto.vspm
Report File Name
[Software Information]
Software Name:,LabSolutions UV-Vis
Version:,1.13
[Instrument Information]
Instrument Name:,UV-2600i
Instrument Type:,UV-2600 Series
Model (S/N):,UV-2600i (A12595901003)

Parameter
[Measurement]
Start:,800 nm
End:,400 nm
Data Interval:,1.0
Scan Speed:,Medium speed
Spectrum Type:,Absorbance
[Accessories]
Accessories:,None
[Advanced]
Slit Width:,2.0
Detector Unit:,Direct Receiving of Light
Light Source Switch Wavelength:,323
S/R Switch:,Standard
Stair Correction:,ON
[Repeat]
Repeat Measurement:,OFF
[Post-processing]
Spectrum Transformation:,OFF
Data Processing Table:,OFF
Print:,OFF

Wavelength (nm),Absorbance
400.0,0.0212
401.0,0.0202
402.0,0.0190
403.0,0.0181
404.0,0.0169
405.0,0.0157
406.0,0.0146
407.0,0.0135
408.0,0.0126
409.0,0.0117
410.0,0.0108
411.0,0.0102
412.0,0.0095
413.0,0.0090
414.0,0.0086
415.0,0.0083
416.0,0.0082
417.0,0.0081
418.0,0.0081
419.0,0.0080
420.0,0.0082
421.0,0.0083
422.0,0.0084
423.0,0.0088
424.0,0.0090
425.0,0.0094
426.0,0.0097
427.0,0.0101
428.0,0.0106
429.0,0.0109
430.0,0.0113
431.0,0.0117
432.0,0.0122
433.0,0.0128
434.0,0.0133
435.0,0.0139
436.0,0.0144
437.0,0.0150
438.0,0.0156
439.0,0.0163
440.0,0.0169
441.0,0.0176
442.0,0.0183
443.0,0.0189
444.0,0.0197
445.0,0.0205
446.0,0.0213
447.0,0.0220
448.0,0.0229
449.0,0.0236
450.0,0.0245
451.0,0.0253
452.0,0.0261
453.0,0.0271
454.0,0.0279
455.0,0.0288
456.0,0.0298
457.0,0.0307
458.0,0.0317
459.0,0.0326
460.0,0.0336
461.0,0.0345
462.0,0.0354
463.0,0.0365
464.0,0.0373
465.0,0.0383
466.0,0.0393
467.0,0.0403
468.0,0.0413
469.0,0.0422
470.0,0.0431
471.0,0.0442
472.0,0.0451
473.0,0.0460
474.0,0.0471
475.0,0.0481
476.0,0.0491
477.0,0.0502
478.0,0.0512
479.0,0.0522
480.0,0.0534
481.0,0.0545
482.0,0.0555
483.0,0.0566
484.0,0.0577
485.0,0.0587
486.0,0.0598
487.0,0.0608
488.0,0.0618
489.0,0.0628
490.0,0.0637
491.0,0.0646
492.0,0.0654
493.0,0.0661
494.0,0.0668
495.0,0.0675
496.0,0.0681
497.0,0.0686
498.0,0.0691
499.0,0.0696
500.0,0.0699
501.0,0.0703
502.0,0.0706
503.0,0.0709
504.0,0.0712
505.0,0.0714
506.0,0.0716
507.0,0.0719
508.0,0.0722
509.0,0.0723
510.0,0.0726
511.0,0.0729
512.0,0.0733
513.0,0.0737
514.0,0.0741
515.0,0.0746
516.0,0.0753
517.0,0.0760
518.0,0.0767
519.0,0.0776
520.0,0.0786
521.0,0.0796
522.0,0.0808
523.0,0.0822
524.0,0.0835
525.0,0.0850
526.0,0.0866
527.0,0.0884
528.0,0.0904
529.0,0.0925
530.0,0.0948
531.0,0.0971
532.0,0.0997
533.0,0.1024
534.0,0.1053
535.0,0.1086
536.0,0.1117
537.0,0.1153
538.0,0.1188
539.0,0.1226
540.0,0.1264
541.0,0.1306
542.0,0.1349
543.0,0.1394
544.0,0.1442
545.0,0.1491
546.0,0.1541
547.0,0.1598
548.0,0.1653
549.0,0.1711
550.0,0.1772
551.0,0.1838
552.0,0.1901
553.0,0.1965
554.0,0.2031
555.0,0.2099
556.0,0.2168
557.0,0.2237
558.0,0.2307
559.0,0.2377
560.0,0.2449
561.0,0.2517
562.0,0.2586
563.0,0.2661
564.0,0.2734
565.0,0.2808
566.0,0.2884
567.0,0.2963
568.0,0.3042
569.0,0.3126
570.0,0.3218
571.0,0.3310
572.0,0.3410
573.0,0.3514
574.0,0.3621
575.0,0.3735
576.0,0.3854
577.0,0.3975
578.0,0.4106
579.0,0.4246
580.0,0.4392
581.0,0.4540
582.0,0.4698
583.0,0.4860
584.0,0.5022
585.0,0.5200
586.0,0.5376
587.0,0.5568
588.0,0.5765
589.0,0.5967
590.0,0.6171
591.0,0.6388
592.0,0.6609
593.0,0.6840
594.0,0.7070
595.0,0.7306
596.0,0.7553
597.0,0.7792
598.0,0.8020
599.0,0.8258
600.0,0.8486
601.0,0.8715
602.0,0.8930
603.0,0.9129
604.0,0.9322
605.0,0.9494
606.0,0.9647
607.0,0.9789
608.0,0.9912
609.0,1.0012
610.0,1.0095
611.0,1.0155
612.0,1.0197
613.0,1.0225
614.0,1.0233
615.0,1.0231
616.0,1.0215
617.0,1.0190
618.0,1.0160
619.0,1.0124
620.0,1.0088
621.0,1.0056
622.0,1.0025
623.0,1.0002
624.0,0.9988
625.0,0.9985
626.0,0.9996
627.0,1.0019
628.0,1.0055
629.0,1.0109
630.0,1.0176
631.0,1.0262
632.0,1.0364
633.0,1.0483
634.0,1.0618
635.0,1.0775
636.0,1.0946
637.0,1.1129
638.0,1.1336
639.0,1.1558
640.0,1.1791
641.0,1.2040
642.0,1.2305
643.0,1.2569
644.0,1.2848
645.0,1.3126
646.0,1.3402
647.0,1.3692
648.0,1.3974
649.0,1.4245
650.0,1.4516
651.0,1.4783
652.0,1.5034
653.0,1.5284
654.0,1.5520
655.0,1.5742
656.0,1.5956
657.0,1.6163
658.0,1.6354
659.0,1.6530
660.0,1.6691
661.0,1.6822
662.0,1.6924
663.0,1.6987
664.0,1.7000
665.0,1.6968
666.0,1.6875
667.0,1.6723
668.0,1.6501
669.0,1.6209
670.0,1.5847
671.0,1.5422
672.0,1.4933
673.0,1.4393
674.0,1.3780
675.0,1.3124
676.0,1.2441
677.0,1.1724
678.0,1.1007
679.0,1.0252
680.0,0.9512
681.0,0.8813
682.0,0.8111
683.0,0.7429
684.0,0.6800
685.0,0.6201
686.0,0.5649
687.0,0.5137
688.0,0.4658
689.0,0.4232
690.0,0.3838
691.0,0.3474
692.0,0.3149
693.0,0.2845
694.0,0.2579
695.0,0.2343
696.0,0.2119
697.0,0.1924
698.0,0.1750
699.0,0.1588
700.0,0.1447
701.0,0.1323
702.0,0.1204
703.0,0.1101
704.0,0.1008
705.0,0.0923
706.0,0.0846
707.0,0.0781
708.0,0.0720
709.0,0.0666
710.0,0.0619
711.0,0.0574
712.0,0.0535
713.0,0.0499
714.0,0.0467
715.0,0.0436
716.0,0.0411
717.0,0.0386
718.0,0.0364
719.0,0.0342
720.0,0.0322
721.0,0.0304
722.0,0.0287
723.0,0.0272
724.0,0.0257
725.0,0.0244
726.0,0.0231
727.0,0.0218
728.0,0.0207
729.0,0.0197
730.0,0.0187
731.0,0.0177
732.0,0.0169
733.0,0.0161
734.0,0.0153
735.0,0.0146
736.0,0.0138
737.0,0.0132
738.0,0.0127
739.0,0.0119
740.0,0.0112
741.0,0.0108
742.0,0.0106
743.0,0.0099
744.0,0.0095
745.0,0.0090
746.0,0.0085
747.0,0.0081
748.0,0.0078
749.0,0.0074
750.0,0.0071
751.0,0.0067
752.0,0.0064
753.0,0.0060
754.0,0.0057
755.0,0.0056
756.0,0.0054
757.0,0.0051
758.0,0.0048
759.0,0.0045
760.0,0.0044
761.0,0.0040
762.0,0.0038
763.0,0.0037
764.0,0.0035
765.0,0.0034
766.0,0.0032
767.0,0.0030
768.0,0.0028
769.0,0.0025
770.0,0.0025
771.0,0.0024
772.0,0.0023
773.0,0.0021
774.0,0.0019
775.0,0.0020
776.0,0.0017
777.0,0.0016
778.0,0.0015
779.0,0.0014
780.0,0.0013
781.0,0.0013
782.0,0.0011
783.0,0.0011
784.0,0.0009
785.0,0.0009
786.0,0.0008
787.0,0.0008
788.0,0.0007
789.0,0.0007
790.0,0.0006
791.0,0.0003
792.0,0.0004
793.0,0.0004
794.0,0.0005
795.0,0.0003
796.0,0.0002
797.0,0.0003
798.0,0.0002
799.0,0.0001
800.0,0.0001
